##BLOCKS= 7          
Note:~End
Plate:	SKBR3 R1 FLUVA/TBF	1.3	PlateFormat	Endpoint	Absorbance	Raw	FALSE	1						1	570	1	11	96	2	6	None	
	Temperature(¡C)	1	2	3	4	5	6	7	8	9	10	11	12		
	27.40														
		0.0432	0.1686	0.1811	0.1796	0.1717	0.1714	0.1631	0.1478	0.1411	0.1237	0.1387			
		0.0413	0.3097	0.3221	0.3439	0.3105	0.3325	0.2256	0.1724	0.1173	0.129	0.1324			
		0.0414	0.9917	1.0342	1.048	0.9606	0.9731	0.8469	0.5818	0.1754	0.1281	0.1289			
		0.0402	1.7766	1.8817	1.8967	1.9067	1.7278	1.6307	1.3857	0.5836	0.1337	0.1312			
		0.0387	2.024	2.1939	2.2104	2.2027	2.0845	2.071	1.8823	1.2058	0.2184	0.1186			
		0.0381	1.955	2.1347	2.1857	2.1236	2.0495	2.0426	1.9138	0.8284	0.1784	0.1458			
															
		
~End
Plate:	SKBR3 R2 FLUVA/TBF	1.3	PlateFormat	Endpoint	Absorbance	Raw	FALSE	1						1	570	1	11	96	2	6	None	
	Temperature(¡C)	1	2	3	4	5	6	7	8	9	10	11	12		
	27.40														
		0.0424	0.1478	0.1567	0.1654	0.1747	0.1659	0.1543	0.1381	0.1268	0.1157	0.1253			
		0.0436	0.3438	0.4071	0.3718	0.3362	0.2698	0.2301	0.1763	0.1185	0.118	0.1175			
		0.0506	1.105	1.0995	1.0896	0.9333	0.9072	0.7301	0.5819	0.1937	0.1224	0.1159			
		0.0405	2.0218	2.1128	2.0441	1.8748	1.7666	1.6051	1.3841	0.765	0.1329	0.1156			
		0.0383	2.3253	2.3942	2.2898	2.1754	2.1019	2.0328	1.8628	1.1862	0.2339	0.1179			
		0.0387	2.1104	2.1976	2.1321	2.1725	2.0686	2.02	1.8811	0.8816	0.171	0.1171			
															
		
~End
Plate:	SKBR3 R3 FLUVA/TBF	1.3	PlateFormat	Endpoint	Absorbance	Raw	FALSE	1						1	570	1	11	96	2	6	None	
	Temperature(¡C)	1	2	3	4	5	6	7	8	9	10	11	12		
	27.40														
		0.0437	0.1432	0.157	0.1592	0.1462	0.1482	0.1388	0.1417	0.132	0.1223	0.1352			
		0.044	0.3027	0.2743	0.2844	0.2748	0.2724	0.1979	0.1652	0.1161	0.1172	0.1265			
		0.0415	0.9103	0.9312	0.9293	0.8638	0.854	0.7727	0.5547	0.1774	0.1201	0.1171			
		0.0408	1.8974	1.8117	1.8778	1.796	1.778	1.8048	1.4809	0.6415	0.1389	0.1208			
		0.0405	2.1372	2.0379	2.1351	2.1509	2.1466	2.0379	1.9243	1.1243	0.2179	0.1244			
		0.0401	2.0101	2.0373	2.1383	2.1108	2.0553	2.0314	1.871	1.0232	0.1878	0.151			
															
		
~End
Instrument type: Instrument serial number:
